Folder: image_processing/TGA_data

File: PEBA_1.csv
Ts;mass;dxdy
31,0595;6,05933;-0,00271198
36,917;6,05524;-0,00271198
45,1638;6,03576;-0,00271198
53,2644;6,01173;-0,00282398
61,0866;5,988;-0,00276591
68,88;5,9666;-0,0023578
76,69;5,94864;-0,00176597
84,5051;5,93827;-0,00112437
92,3396;5,93268;-0,000559914
100,223;5,931;-0,000171881
108,13;5,93156;8,09E-05
116,06;5,93301;0,000247257
124,011;5,93569;0,000356924
131,994;5,93897;0,000414813
139,973;5,94269;0,000416972
147,965;5,94603;0,00034189
156,009;5,94852;0,000225711
164,052;5,94986;7,09E-06
172,082;5,95;-0,000233237
180,129;5,9457;-0,000439676
188,185;5,94117;-0,00054168
196,263;5,93607;-0,000487034
204,326;5,93242;-0,000293636
212,38;5,93095;-5,40E-05
220,415;5,9315;0,000179447
228,479;5,93476;0,000376924
236,518;5,93793;0,00050499
244,486;5,94305;0,000565558
252,383;5,94779;0,000608937
260,64;5,95233;0,000624977
268,773;5,95711;0,000659981
276,838;5,96274;0,000687569
284,867;5,96835;0,000698833
292,877;5,97385;0,000701735
300,916;5,97897;0,00068987
308,921;5,9848;0,000662156
316,938;5,98986;0,000616941
324,942;5,99382;0,000523663
332,94;5,99896;0,000373427
340,93;6,00092;0,000146126
348,922;6,0017;-0,000189799
356,929;5,99861;-0,000679994
364,91;5,99292;-0,00149882
372,89;5,97998;-0,00310825
380,863;5,9555;-0,00606906
388,853;5,90221;-0,0112099
396,914;5,80509;-0,0197812
404,92;5,63206;-0,0329704
412,842;5,34002;-0,0498979
420,786;4,86474;-0,0670992
428,726;4,23393;-0,0780852
436,671;3,51623;-0,0765379
444,619;2,87383;-0,0624508
452,752;2,46336;-0,0418677
460,638;2,2788;-0,0227824
468,356;2,20452;-0,0105404
476,007;2,16947;-0,0050339
483,667;2,14634;-0,0030952
491,343;2,12754;-0,00246233
499,03;2,11009;-0,00225913
506,705;2,09339;-0,00221413
514,399;2,076;-0,0022426
522,084;2,05831;-0,00232361
529,782;2,03956;-0,00244223
537,494;2,02047;-0,00255243
545,206;1,99973;-0,00265758
552,927;1,9783;-0,00274945
560,645;1,95676;-0,00281132
568,358;1,93425;-0,00281854
576,056;1,91172;-0,00275186
583,743;1,88911;-0,00260583
591,428;1,87045;-0,0024034
599,116;1,85235;-0,00217957
606,787;1,83639;-0,00194382
614,464;1,82185;-0,00169271
622,129;1,80949;-0,00146456
629,78;1,79951;-0,0012232
637,433;1,79007;-0,00101349
645,07;1,7837;-0,000838844
652,701;1,77803;-0,00068792
660,352;1,7731;-0,000587373
667,986;1,76888;-0,000523694
675,631;1,76569;-0,000488202
683,261;1,76148;-0,000469727
690,882;1,75801;-0,000427716
698,543;1,75401;-0,000397108
706,187;1,75204;-0,000363799
713,84;1,74965;-0,000340394
721,506;1,74623;-0,0003485
729,182;1,744;-0,000347449
736,863;1,74106;-0,000364751
744,533;1,73758;-0,000299608
752,2;1,73612;-0,000245567
759,882;1,73481;-0,00018868
767,584;1,73376;-0,000128916
775,263;1,732;-0,00011448
782,928;1,73098;-7,51E-05
790,62;1,72934;-7,51E-05
798,309;1,72956;-7,51E-05

File: PEBA_2.csv
Ts;mass;dxdy
30,1839;7,99292;-0,0031676
35,9322;7,98531;-0,0031676
43,6335;7,96135;-0,0031676
51,3155;7,93235;-0,00322993
58,9509;7,90568;-0,00299237
66,6082;7,88374;-0,00244416
74,29;7,86715;-0,00185561
82,0319;7,85612;-0,00128551
89,8076;7,84951;-0,000802544
97,6409;7,84478;-0,000438163
105,466;7,843;-1,73E-04
113,354;7,842;-5,61E-06
121,278;7,8421;6,08E-06
129,211;7,843;4,22E-06
137,156;7,84285;-5,11E-05
145,129;7,84245;-0,00013693
153,097;7,841;-0,000241902
161,077;7,8388;-3,67E-04
169,095;7,83566;-0,000503018
177,107;7,83071;-0,000644824
185,144;7,82553;-0,000777172
193,194;7,81844;-0,000849616
201,22;7,81039;-0,000756162
209,266;7,80395;-5,86E-04
217,277;7,80212;-0,000365952
225,305;7,79929;-0,000202702
233,268;7,79918;-0,000109355
241,175;7,798;-3,07E-05
248,966;7,79916;1,91E-05
257,238;7,79861;0,000107942
265,696;7,79942;0,000147437
273,643;7,80184;0,000178746
281,589;7,80332;0,000201667
289,596;7,80445;0,00016913
297,609;7,80601;0,000130144
305,623;7,80699;8,97E-05
313,617;7,807;4,75E-06
321,62;7,80748;-0,000111857
329,612;7,80602;-0,000277238
337,604;7,80319;-0,00054908
345,612;7,79883;-0,000903617
353,587;7,7901;-0,00139208
361,557;7,77722;-0,00221865
369,539;7,76028;-0,00363135
377,518;7,72936;-0,00606637
385,725;7,67695;-0,00996849
393,561;7,58906;-0,0163126
401,712;7,44792;-0,0275049
409,627;7,225;-0,0462031
417,497;6,81864;-0,072313
425,361;6,13902;-0,0963614
433,183;5,16875;-0,103415
441,112;4,16552;-0,0893122
449,202;3,59146;-0,0612219
457,133;3,3414;-0,0327928
464,95;3,22296;-0,0155707
472,714;3,16053;-0,00788263
480,494;3,12472;-0,00450752
488,291;3,10224;-0,00299947
496,079;3,08408;-0,00244764
503,872;3,06748;-0,0023984
511,677;3,04806;-0,00263733
519,469;3,02702;-0,00298351
527,228;3,00235;-0,00338839
535,029;2,97338;-0,00380288
542,806;2,9415;-0,00419257
550,592;2,90808;-0,00450004
558,342;2,8704;-0,00469496
566,08;2,83222;-0,00468589
573,797;2,79464;-0,00450999
581,494;2,76157;-0,00426339
589,199;2,72963;-0,00400066
596,892;2,69854;-0,00372756
604,57;2,67095;-0,00342954
612,263;2,64514;-0,00321268
619,94;2,62216;-0,00277938
627,621;2,59203;-0,00235111
635,276;2,58571;-0,00195937
642,933;2,57128;-0,00160592
650,577;2,55877;-0,00150262
658,215;2,54685;-0,00139564
665,849;2,53821;-0,00129738
673,505;2,52753;-0,00124166
681,151;2,51753;-0,00120595
688,819;2,50834;-0,00117751
696,491;2,49929;-0,00113483
704,189;2,48936;-0,00107159
711,889;2,48031;-0,00103379
719,572;2,47534;-0,00102498
727,257;2,46676;-0,0010521
734,953;2,45819;-0,00104125
742,644;2,44924;-0,000970802
750,346;2,44302;-0,000941004
758,036;2,43681;-0,00084307
765,752;2,42987;-0,000803458
773,458;2,42487;-0,000765397
781,135;2,4177;-7,06E-04
788,842;2,41275;-7,06E-04
796,551;2,40871;-7,06E-04

File: POMS_1.csv
Ts;mass;dxdy
25,5169;8,17;0,000375523
28,3077;8,17;0,000375523
33,7436;8,17;0,000375523
39,892;8,17;0,000375523
46,2153;8,17;0,000163241
52,6895;8,17;0,000076013
59,2808;8,17;0,000115475
65,9267;8,17;0,000153712
72,6478;8,17;0,000156996
79,3958;8,17;1,42E-04
86,1325;8,17;0,000132683
92,9394;8,17;9,62046E-05
99,7649;8,17;0,000096102
106,595;8,17;0,000111056
113,463;8,17;0,000129761
120,347;8,17;0,00010868
127,228;8,17;8,54E-05
134,16;8,17;0,000065301
141,065;8,17;3,32181E-05
148,057;8,17;8,8471E-06
155,003;8,17;-1,30672E-05
161,97;8,16998;-7,47861E-05
168,932;8,1696;-1,03E-04
175,928;8,16694;-0,000102988
182,953;8,16664;-8,09391E-05
189,934;8,167;-5,80754E-05
196,921;8,16613;-5,06606E-05
203,927;8,1661;-9,59949E-05
210,914;8,16515;-0,000156667
217,926;8,16455;-0,000217107
224,943;8,1625;-0,000261177
231,944;8,15976;-0,000268204
238,941;8,15818;-0,000281428
245,91;8,156;-0,000296743
252,283;8,15526;-0,000339081
259,743;8,15191;-0,000405815
266,958;8,14812;-0,000499007
274,033;8,1449;-0,000613425
281,061;8,14162;-0,00130918
288,091;8,1362;-0,00322697
295,207;8,12622;-0,00532364
302,557;8,061;-0,00693491
309,232;7,98836;-0,00770189
316,039;7,94021;-0,00748762
322,946;7,8992;-0,00697719
329,897;7,86021;-0,00795822
336,856;7,81;-0,0108278
343,848;7,73561;-0,0156888
350,797;7,61817;-0,0223058
357,725;7,44343;-0,0298225
364,639;7,20633;-0,0373425
371,546;6,91494;-0,0441871
378,449;6,58968;-0,0499527
385,364;6,2249;-0,0546431
392,266;5,8315;-0,0584965
399,161;5,41522;-0,0615448
406,068;4,98247;-0,0634837
412,974;4,53499;-0,0637226
419,887;4,08535;-0,0610689
426,783;3,65372;-0,0547201
433,682;3,28289;-0,0452971
440,571;3,01489;-0,0344469
447,448;2,83913;-0,0241953
454,31;2,72315;-0,0161726
461,18;2,64711;-0,0107866
468,036;2,59531;-0,0073584
474,868;2,5588;-0,00519821
481,688;2,53227;-0,0038572
488,513;2,51087;-0,0030195
495,33;2,49357;-0,00248946
502,14;2,47869;-0,00214177
508,965;2,4648;-0,00193496
515,759;2,45352;-0,00180423
522,555;2,44133;-0,00172375
529,36;2,42933;-0,00168632
536,161;2,41869;-0,00168772
542,952;2,40748;-0,00168207
549,75;2,39551;-0,00168852
556,542;2,38354;-0,00170654
563,32;2,37254;-0,00171387
570,094;2,36085;-0,00173541
576,88;2,34881;-0,00176229
583,658;2,33612;-0,00179637
590,429;2,32392;-0,00175682
597,174;2,3121;-0,00165736
603,936;2,30039;-0,00153011
610,683;2,29146;-0,00141481
617,424;2,28212;-0,00130912
624,167;2,27318;-0,0012668
630,886;2,26477;-0,00123513
637,618;2,25623;-0,00116729
644,327;2,2481;-0,00111705
651,037;2,24114;-0,00107897
657,755;2,23436;-0,00102852
664,454;2,22679;-0,00099537
671,155;2,21988;-9,76E-04
677,858;2,21453;-9,47E-04
684,556;2,20746;-9,29E-04
691,256;2,20061;-9,29E-04
697,958;2,19525;-9,29E-04

File: POMS_2.csv
Ts;mass;dxdy
28,583;8,139;0,000358466
30,4753;8,139;0,000358466
35,0037;8,139;0,000358466
40,4931;8,139;0,000358466
46,5145;8,139;0,000194415
52,8402;8,139;0,000158318
59,355;8,139;0,000144989
65,9709;8,139;0,00015726
72,6444;8,139;0,000167461
79,3678;8,139;1,75E-04
86,1208;8,139;1,79E-04
92,9161;8,139;1,84E-04
99,6969;8,139;1,70E-04
106,556;8,139;1,51E-04
113,417;8,139;0,000136088
120,294;8,139;0,000112289
127,185;8,139;8,28E-05
134,084;8,139;6,27502E-05
141,011;8,139;3,75686E-05
147,942;8,139;2,91798E-05
154,888;8,139;2,90975E-05
161,839;8,139;3,49832E-05
168,804;8,139;2,56E-05
175,784;8,13871;-2,64922E-05
182,761;8,13889;-7,19893E-05
189,755;8,13809;-0,000103822
196,753;8,13281;-1,29E-04
203,75;8,13602;-1,46E-04
210,744;8,13569;-0,000166491
217,757;8,134;-0,000186192
224,761;8,13222;-0,000236552
231,773;8,131;-0,00029365
238,759;8,12816;-0,000382479
245,735;8,12662;-0,000429023
252,5;8,12185;-4,75E-04
259,581;8,11858;-4,77E-04
266,741;8,11603;-0,000486192
273,817;8,11232;-0,000530103
280,854;8,10942;-0,000770146
287,881;8,10417;-0,00194181
294,963;8,09813;-0,00367906
302,486;8,07252;-0,00535805
309,226;8,00491;-0,00662172
315,933;7,95462;-0,0072613
322,824;7,90961;-0,00736427
329,761;7,86529;-0,00827256
336,741;7,81367;-0,0108945
343,748;7,73975;-0,0156687
350,746;7,6261;-0,0228486
357,678;7,45444;-0,032092
364,605;7,20353;-0,0424524
371,48;6,86957;-0,0526526
378,385;6,46055;-0,0613871
385,303;5,99932;-0,0677723
392,22;5,50413;-0,0712293
399,13;4,99353;-0,0713111
406,054;4,48965;-0,0675975
412,987;4,02349;-0,0599744
419,918;3,6273;-0,0494435
426,844;3,33246;-0,0379443
433,753;3,13479;-0,0274207
440,65;2,99981;-0,0191968
447,544;2,90198;-0,0135781
454,424;2,83076;-0,00990187
461,294;2,77783;-0,00736197
468,147;2,73713;-0,00555401
475,002;2,70648;-0,00428068
481,849;2,68253;-0,00340937
488,674;2,66385;-0,00282213
495,506;2,64638;-0,00243546
502,333;2,63134;-0,00218357
509,168;2,61722;-0,00203191
515,989;2,60455;-0,00194174
522,808;2,59152;-0,00189173
529,61;2,57843;-0,00186389
536,437;2,56571;-0,00183882
543,252;2,55143;-0,0017963
550,037;2,54133;-0,00175632
556,853;2,52959;-0,00175455
563,648;2,518;-0,00174548
570,435;2,50635;-0,00177341
577,227;2,49398;-0,00181847
584,008;2,48106;-0,00180831
590,786;2,46804;-0,00176943
597,559;2,45515;-0,00170939
604,333;2,44533;-0,00158074
611,096;2,43462;-0,00148656
617,857;2,4251;-0,00141759
624,613;2,41656;-0,00130766
631,377;2,40428;-0,00124125
638,124;2,39878;-0,00115269
644,877;2,3918;-0,00105448
651,612;2,38419;-0,000998358
658,344;2,3781;-0,000989206
665,077;2,37155;-0,000965659
671,809;2,36417;-1,00E-03
678,547;2,35761;-9,87E-04
685,269;2,35127;-9,74E-04
692;2,34394;-9,74E-04
698,734;2,33811;-9,74E-04